Folder: demeter/lib/Demeter/UI/Athena/share

File: spare.xdi
# XDI/1.0
# Column.1: energy eV
# Column.2: i0
# Column.3: itrans
# Column.4: mutrans
# Element.edge: K
# Element.symbol: Cu
# Scan.edge_energy: 8980.0
# Mono.name: Si 111
# Mono.d_spacing: 3.13553
# Beamline.name: 13ID
# Beamline.collimation: none
# Beamline.focusing: yes
# Beamline.harmonic_rejection: rhodium-coated mirror
# Facility.name: APS
# Facility.energy: 7.00 GeV
# Facility.xray_source: APS Undulator A
# Scan.start_time: 2001-06-26T22:27:31
# Detector.I0: 10cm  N2
# Detector.I1: 10cm  N2
# Sample.name: Cu
# Sample.prep: Cu metal foil
# GSE.EXTRA:  config 1
# ///
# Cu foil Room Temperature
# measured at beamline 13-ID
#----
# energy i0 itrans mutrans
  8779.0  149013.7  550643  -1.30705
  8789.0  144864.7  531876  -1.30061
  8799.0  132978.7  489591  -1.30338
  8809.0  125444.7  463051  -1.30597
  8819.0  121324.7  449969  -1.31071
  8829.0  119447.7  444386  -1.31382
  8839.0  119100.7  440176  -1.30721
  8849.0  117707.7  440448  -1.31959
  8859.0  117754.7  442302  -1.32339
  8869.0  117428.7  441944  -1.32535
  8879.0  117383.7  442810  -1.327693
  8889.0  117185.7  443658  -1.33129